File: v44/content/Data/reflectivity.UXD
#; C:\DIFFDAT1\Praktikum\Knierim_Karas\reflectivity.raw(Diffrac Plus V1.01 file) converted by XCH V1.0
#_FILEVERSION=2
#_SITE='Deutschland'
#_USER='Administrator'
#_GONIOMETER_CODE=4885
#; D8 Theta/Theta; Special
#_SAMPLE_CHANGER_CODE=0
#_ATTACHMENTS_CODE=0
#_GONIOMETER_RADIUS=350
#_FIXED_DIVSLIT=0.600000
#_FIXED_SAMPLESLIT=0.000000
#_FIXED_DETSLIT=11.66
#_MONOCHROMATOR=0
#; None
#_THIN_FILM='N'
#_BETA_FILTER='Y'
#_FIXED_ANTISLIT=8.340000
#_ANALYZER_CODE=0
#; None
#_DATEMEASURED='27-Nov-2023 10:39:13'
#_WL_UNIT='A'
#_WL1=1.540600
#_WL2=1.544390
#_WL3=1.392220
#_WLRATIO=0.500000
#_ANODE='Cu'
#; (Data for Range number 1)
#_DRIVE='THETA'
#_STEPTIME=5.000660
#_STEPSIZE=0.005000
#_STEPMODE='C'
#_START=0.000000
#_THETA=0.000000
#_2THETA=0.000000
#_KHI=0.000000
#_PHI=92.46
#_X=-2.045000
#_Y=1.000000
#_Z=-0.038000
#_DIVERGENCE=0.000000
#_ANTISCATTER=0.000000
#_DETECTOR=5
#_DETECTORSLIT='unkn'
#_AUX1=0.000000
#_AUX2=0.000000
#_AUX3=0.000000
#_TIMESTARTED=2.000000
#_TEMP_RATE=-1.000000
#_TEMP_DELAY=-1.000000
#_KV=40
#_MA=35
#_RANGE_WL=1.540600
#_3DPLANE=0
#_GONIOMETER=-0.002500
#_PSDCHANNEL0=0
#_2THETACOUNTS
   0.0000   6648740
   0.0050   6831710
   0.0100   7037030
   0.0150   7154510
   0.0200   7358860
   0.0250   7408490
   0.0300   7473140
   0.0350   7230140
   0.0400   6964740
   0.0450   6273820
   0.0500   5950190
   0.0550   4752520
   0.0600   3693920
   0.0650   3038020
   0.0700   2683710
   0.0750   2475870
   0.0800   2335670
   0.0850   2251480
   0.0900   2233390
   0.0950   2231660
   0.1000   2250870
   0.1050   2282220
   0.1100   2348140
   0.1150   2405310
   0.1200   2470520
   0.1250   2536110
   0.1300   2607800
   0.1350   2680070
   0.1400   2771620
   0.1450   2857270
   0.1500   2963860
   0.1550   3033730
   0.1600   3104260
   0.1650   3168070
   0.1700   3238380
   0.1750   3300190
   0.1800   3357660
   0.1850   3408120
   0.1900   3437180
   0.1950   3481470
   0.2000   3498740
   0.2050   3512910
   0.2100   3516170
   0.2150   3489210
   0.2200   3440550
   0.2250   3338260
   0.2300   3188440
   0.2350   2977680
   0.2400   2756440
   0.2450   2495920
   0.2500   2198100
   0.2550   1885890
   0.2600   1561770
   0.2650   1238280
   0.2700    931118
   0.2750    695955
   0.2800    520370
   0.2850    398170
   0.2900    333601
   0.2950    303291
   0.3000    281917
   0.3050    254629
   0.3100    221310
   0.3150    185054
   0.3200    152195
   0.3250    130765
   0.3300    119333
   0.3350    115804
   0.3400    114191
   0.3450    111303
   0.3500    103625
   0.3550     92982
   0.3600     80655
   0.3650     69725
   0.3700     62284
   0.3750     59018
   0.3800     58331
   0.3850     58261
   0.3900     57849
   0.3950     55181
   0.4000     50852
   0.4050     45103
   0.4100     40135
   0.4150     36028
   0.4200     33851
   0.4250     33809
   0.4300     34070
   0.4350     34103
   0.4400     33459
   0.4450     31576
   0.4500     28753
   0.4550     26074
   0.4600     23517
   0.4650     21884
   0.4700     21174
   0.4750     21325
   0.4800     21559
   0.4850     21461
   0.4900     21127
   0.4950     19721
   0.5000     18338
   0.5050     16443
   0.5100     15006
   0.5150     14075
   0.5200     13762
   0.5250     13866
   0.5300     14052
   0.5350     13846
   0.5400     13540
   0.5450     12983
   0.5500     12023
   0.5550     10804
   0.5600      9933
   0.5650      9617
   0.5700      9188
   0.5750      9286
   0.5800      9321
   0.5850      9444
   0.5900      9146
   0.5950      8485
   0.6000      8149
   0.6050      7565
   0.6100      6686
   0.6150      6431
   0.6200      6221
   0.6250      6265
   0.6300      6379
   0.6350      6237
   0.6400      6254
   0.6450      5917
   0.6500      5690
   0.6550      5132
   0.6600      4798
   0.6650      4390
   0.6700      4264
   0.6750      4251
   0.6800      4301
   0.6850      4311
   0.6900      4188
   0.6950      4136
   0.7000      3775
   0.7050      3470
   0.7100      3281
   0.7150      3052
   0.7200      2896
   0.7250      2854
   0.7300      2826
   0.7350      2913
   0.7400      2878
   0.7450      2850
   0.7500      2778
   0.7550      2620
   0.7600      2390
   0.7650      2363
   0.7700      2067
   0.7750      2034
   0.7800      2037
   0.7850      1996
   0.7900      2071
   0.7950      2049
   0.8000      2115
   0.8050      1945
   0.8100      1873
   0.8150      1676
   0.8200      1625
   0.8250      1565
   0.8300      1416
   0.8350      1504
   0.8400      1449
   0.8450      1474
   0.8500      1464
   0.8550      1375
   0.8600      1377
   0.8650      1245
   0.8700      1233
   0.8750      1113
   0.8800      1021
   0.8850       985
   0.8900      1036
   0.8950      1047
   0.9000      1091
   0.9050      1025
   0.9100      1011
   0.9150       969
   0.9200       952
   0.9250       840
   0.9300       806
   0.9350       817
   0.9400       731
   0.9450       670
   0.9500       810
   0.9550       808
   0.9600       776
   0.9650       755
   0.9700       694
   0.9750       687
   0.9800       603
   0.9850       571
   0.9900       509
   0.9950       557
   1.0000       566
   1.0050       565
   1.0100       579
   1.0150       531
   1.0200       543
   1.0250       529
   1.0300       517
   1.0350       437
   1.0400       458
   1.0450       417
   1.0500       438
   1.0550       449
   1.0600       405
   1.0650       394
   1.0700       431
   1.0750       417
   1.0800       366
   1.0850       364
   1.0900       308
   1.0950       320
   1.1000       301
   1.1050       276
   1.1100       299
   1.1150       289
   1.1200       284
   1.1250       343
   1.1300       314
   1.1350       287
   1.1400       232
   1.1450       260
   1.1500       253
   1.1550       244
   1.1600       227
   1.1650       228
   1.1700       234
   1.1750       230
   1.1800       174
   1.1850       217
   1.1900       187
   1.1950       182
   1.2000       174
   1.2050       176
   1.2100       161
   1.2150       147
   1.2200       169
   1.2250       179
   1.2300       185
   1.2350       166
   1.2400       173
   1.2450       151
   1.2500       156
   1.2550       123
   1.2600       122
   1.2650       140
   1.2700       138
   1.2750       136
   1.2800       141
   1.2850       137
   1.2900       117
   1.2950       102
   1.3000       116
   1.3050       106
   1.3100        89
   1.3150        85
   1.3200       108
   1.3250        87
   1.3300        85
   1.3350       110
   1.3400        82
   1.3450        81
   1.3500        87
   1.3550        87
   1.3600        85
   1.3650        65
   1.3700        74
   1.3750        87
   1.3800        82
   1.3850        86
   1.3900       102
   1.3950        88
   1.4000        67
   1.4050        74
   1.4100        53
   1.4150        78
   1.4200        49
   1.4250        60
   1.4300        53
   1.4350        62
   1.4400        54
   1.4450        52
   1.4500        56
   1.4550        47
   1.4600        53
   1.4650        43
   1.4700        51
   1.4750        46
   1.4800        51
   1.4850        49
   1.4900        35
   1.4950        46
   1.5000        49
   1.5050        36
   1.5100        37
   1.5150        35
   1.5200        48
   1.5250        28
   1.5300        30
   1.5350        48
   1.5400        46
   1.5450        40
   1.5500        31
   1.5550        34
   1.5600        42
   1.5650        32
   1.5700        34
   1.5750        36
   1.5800        35
   1.5850        32
   1.5900        34
   1.5950        35
   1.6000        25
   1.6050        18
   1.6100        34
   1.6150        25
   1.6200        25
   1.6250        23
   1.6300        28
   1.6350        21
   1.6400        26
   1.6450        24
   1.6500        21
   1.6550        19
   1.6600        19
   1.6650        15
   1.6700        17
   1.6750        24
   1.6800        14
   1.6850        22
   1.6900        20
   1.6950        26
   1.7000        18
   1.7050        23
   1.7100        24
   1.7150        17
   1.7200        20
   1.7250        15
   1.7300        20
   1.7350        21
   1.7400        21
   1.7450        15
   1.7500        17
   1.7550        17
   1.7600        26
   1.7650        12
   1.7700        21
   1.7750        13
   1.7800        13
   1.7850        18
   1.7900        18
   1.7950         8
   1.8000        16
   1.8050        21
   1.8100        12
   1.8150         9
   1.8200        14
   1.8250        11
   1.8300        11
   1.8350         9
   1.8400         8
   1.8450        15
   1.8500        11
   1.8550         8
   1.8600        12
   1.8650         5
   1.8700        12
   1.8750        14
   1.8800         8
   1.8850        11
   1.8900         9
   1.8950         9
   1.9000        10
   1.9050         6
   1.9100         9
   1.9150        16
   1.9200        10
   1.9250         9
   1.9300         8
   1.9350         8
   1.9400        16
   1.9450         6
   1.9500         4
   1.9550         7
   1.9600         4
   1.9650         9
   1.9700        13
   1.9750         7
   1.9800        10
   1.9850         6
   1.9900         7
   1.9950         7
   2.0000         7
   2.0050         5
   2.0100         8
   2.0150         9
   2.0200         9
   2.0250         9
   2.0300         8
   2.0350         3
   2.0400         5
   2.0450         4
   2.0500         5
   2.0550         4
   2.0600         9
   2.0650         8
   2.0700         3
   2.0750         5
   2.0800         7
   2.0850         7
   2.0900         6
   2.0950         5
   2.1000         6
   2.1050         4
   2.1100         4
   2.1150         1
   2.1200         8
   2.1250         5
   2.1300         4
   2.1350         4
   2.1400         6
   2.1450         6
   2.1500         8
   2.1550         7
   2.1600         7
   2.1650         7
   2.1700         3
   2.1750         7
   2.1800         7
   2.1850         6
   2.1900         7
   2.1950         8
   2.2000         4
   2.2050         7
   2.2100         5
   2.2150         3
   2.2200         4
   2.2250         4
   2.2300         3
   2.2350         1
   2.2400         3
   2.2450         8
   2.2500         4
   2.2550         4
   2.2600         5
   2.2650         5
   2.2700         5
   2.2750         5
   2.2800         8
   2.2850         4
   2.2900         2
   2.2950         8
   2.3000         4
   2.3050         4
   2.3100         3
   2.3150         2
   2.3200         2
   2.3250         5
   2.3300         3
   2.3350         1
   2.3400         2
   2.3450         7
   2.3500         2
   2.3550         4
   2.3600         5
   2.3650         1
   2.3700         2
   2.3750         3
   2.3800         4
   2.3850         2
   2.3900         2
   2.3950         5
   2.4000         4
   2.4050         7
   2.4100         4
   2.4150         1
   2.4200         2
   2.4250         3
   2.4300         3
   2.4350         7
   2.4400         1
   2.4450         2
   2.4500         4
   2.4550         2
   2.4600         2
   2.4650         3
   2.4700         2
   2.4750         4
   2.4800         2
   2.4850         4
   2.4900         1
   2.4950         4
   2.5000         5